word,kk_valence_mean,kk_valence_sd,kk_arousal_mean,kk_arousal_sd,kk_concreteness_mean,kk_concreteness_sd,number_of_letters,number_of_syllables,trials.thisRepN,trials.thisTrialN,trials.thisN,trials.thisIndex,thisRow.t,notes,resp_scale.response,resp_scale.rt,participant,session,date,expName,psychopyVersion,frameRate,expStart,
Lager,5.171875,1.1893,2.33871,2.032067,3.096774,2.434113,5,2,0,0,0,54,136.71603690000484,,5.0,18.75342239998281,059528,001,2023-10-25_15h09.04.828,demo_experiment,2023.2.3,60.18958515547771,2023-10-25 15h09.11.961086 +0200,
Irrsinn,3.9375,1.934441,5.539683,2.354306,7.419355,1.815673,7,2,0,1,1,50,155.5393238000106,,1.0,2.343426899984479,059528,001,2023-10-25_15h09.04.828,demo_experiment,2023.2.3,60.18958515547771,2023-10-25 15h09.11.961086 +0200,
Opfer,3.0,2.469165,6.428571,2.298066,4.968254,2.614897,5,2,0,2,2,61,157.9552295000176,,5.0,1.4700914999702945,059528,001,2023-10-25_15h09.04.828,demo_experiment,2023.2.3,60.18958515547771,2023-10-25 15h09.11.961086 +0200,
Pest,2.904762,2.860827,6.84127,2.171712,4.612903,2.932882,4,1,0,3,3,66,159.47127690003254,,5.0,1.9844631000305526,059528,001,2023-10-25_15h09.04.828,demo_experiment,2023.2.3,60.18958515547771,2023-10-25 15h09.11.961086 +0200,
Felsen,5.390625,1.304658,3.274194,2.166582,1.258065,0.541264,6,2,0,4,4,23,161.48728220001794,,5.0,1.0706062999670394,059528,001,2023-10-25_15h09.04.828,demo_experiment,2023.2.3,60.18958515547771,2023-10-25 15h09.11.961086 +0200,
Freibad,6.079365,2.034395,3.703125,2.14313,2.333333,2.047816,7,1,0,5,5,26,162.58692359999986,,5.0,1.8914591000066139,059528,001,2023-10-25_15h09.04.828,demo_experiment,2023.2.3,60.18958515547771,2023-10-25 15h09.11.961086 +0200,
Liebchen,6.206349,1.667127,5.09375,2.334821,6.428571,2.029733,8,2,0,6,6,56,164.51961389998905,,1.0,2.077795499993954,059528,001,2023-10-25_15h09.04.828,demo_experiment,2023.2.3,60.18958515547771,2023-10-25 15h09.11.961086 +0200,
Helfer,6.66129,2.475742,4.571429,2.600957,4.714286,2.696644,6,2,0,7,7,44,166.63557460001903,,5.0,1.727890699985437,059528,001,2023-10-25_15h09.04.828,demo_experiment,2023.2.3,60.18958515547771,2023-10-25 15h09.11.961086 +0200,
Anhang,5.015625,0.983873,2.33871,1.889952,6.016129,2.790452,6,2,0,8,8,3,168.40146419999655,,1.0,1.6569292999920435,059528,001,2023-10-25_15h09.04.828,demo_experiment,2023.2.3,60.18958515547771,2023-10-25 15h09.11.961086 +0200,
Wissen,6.15873,2.201219,4.68254,2.752274,7.870968,1.56272,6,2,0,9,9,91,170.08688150002854,,1.0,2.315061900008004,059528,001,2023-10-25_15h09.04.828,demo_experiment,2023.2.3,60.18958515547771,2023-10-25 15h09.11.961086 +0200,
Harem,4.953125,2.058121,5.140625,2.474423,4.190476,2.614211,5,2,0,10,10,41,172.45016680000117,,3.0,1.7891385999973863,059528,001,2023-10-25_15h09.04.828,demo_experiment,2023.2.3,60.18958515547771,2023-10-25 15h09.11.961086 +0200,
Mystik,5.730159,1.638315,4.90625,2.361858,7.887097,1.865167,6,2,0,11,11,60,174.28269979998004,,1.0,2.220897499995772,059528,001,2023-10-25_15h09.04.828,demo_experiment,2023.2.3,60.18958515547771,2023-10-25 15h09.11.961086 +0200,
Schal,5.203125,1.544881,2.507937,1.990891,1.634921,1.248245,5,1,0,12,12,72,176.5821367999888,,5.0,1.6939800000400282,059528,001,2023-10-25_15h09.04.828,demo_experiment,2023.2.3,60.18958515547771,2023-10-25 15h09.11.961086 +0200,
Härte,4.59375,1.874802,4.15625,2.324601,6.483871,2.494203,5,2,0,13,13,42,178.31472860003123,,1.0,2.2081204000278376,059528,001,2023-10-25_15h09.04.828,demo_experiment,2023.2.3,60.18958515547771,2023-10-25 15h09.11.961086 +0200,
Bündel,5.03125,0.835117,2.741936,2.087712,3.174603,2.317811,6,2,0,14,14,15,180.56401780003216,,5.0,1.4782273000455461,059528,001,2023-10-25_15h09.04.828,demo_experiment,2023.2.3,60.18958515547771,2023-10-25 15h09.11.961086 +0200,
Würde,6.380952,2.253518,4.65625,2.405145,8.032258,1.792221,5,2,0,15,15,94,182.0800726999878,,1.0,1.441325500025414,059528,001,2023-10-25_15h09.04.828,demo_experiment,2023.2.3,60.18958515547771,2023-10-25 15h09.11.961086 +0200,
Zimmer,5.375,0.967733,2.650794,2.041179,2.238095,1.729388,6,2,0,16,16,97,183.54977540002437,,5.0,1.6786519999732263,059528,001,2023-10-25_15h09.04.828,demo_experiment,2023.2.3,60.18958515547771,2023-10-25 15h09.11.961086 +0200,
Urin,3.671875,1.782229,6.31746,2.220327,2.222222,1.72687,4,2,0,17,17,88,185.26520929997787,,5.0,1.4411544000031427,059528,001,2023-10-25_15h09.04.828,demo_experiment,2023.2.3,60.18958515547771,2023-10-25 15h09.11.961086 +0200,
Fleiss,6.460318,1.941278,4.238095,2.204938,7.725807,1.651322,5,1,0,18,18,24,186.76173050003126,,1.0,1.6673830999643542,059528,001,2023-10-25_15h09.04.828,demo_experiment,2023.2.3,60.18958515547771,2023-10-25 15h09.11.961086 +0200,
Gedicht,6.333333,2.032002,4.634921,2.522809,3.777778,2.523723,7,2,0,19,19,29,188.47784900001716,,3.0,1.7756931000039913,059528,001,2023-10-25_15h09.04.828,demo_experiment,2023.2.3,60.18958515547771,2023-10-25 15h09.11.961086 +0200,
Tripper,3.142857,2.663112,6.265625,2.463977,4.951613,3.091116,7,2,0,20,20,85,190.3107078000321,,3.0,1.9288945000153035,059528,001,2023-10-25_15h09.04.828,demo_experiment,2023.2.3,60.18958515547771,2023-10-25 15h09.11.961086 +0200,
Bonbon,5.984127,1.755104,3.3125,2.069238,1.741936,1.213794,6,2,0,21,21,14,192.27660889999242,,5.0,1.6907559999963269,059528,001,2023-10-25_15h09.04.828,demo_experiment,2023.2.3,60.18958515547771,2023-10-25 15h09.11.961086 +0200,
Wohl,6.193548,1.982205,4.765625,2.355286,7.564516,2.093088,4,1,0,22,22,92,194.0091589000076,,1.0,1.9036705999751575,059528,001,2023-10-25_15h09.04.828,demo_experiment,2023.2.3,60.18958515547771,2023-10-25 15h09.11.961086 +0200,
Geisel,2.857143,2.64488,6.460318,2.298845,4.0,2.61145,6,2,0,23,23,33,195.9750866999966,,4.0,1.3158543999888934,059528,001,2023-10-25_15h09.04.828,demo_experiment,2023.2.3,60.18958515547771,2023-10-25 15h09.11.961086 +0200,
Produkt,5.140625,0.870453,2.253968,1.645799,4.380952,2.942616,7,2,0,24,24,69,197.3413912000251,,5.0,1.4579854999901727,059528,001,2023-10-25_15h09.04.828,demo_experiment,2023.2.3,60.18958515547771,2023-10-25 15h09.11.961086 +0200,
Becken,5.421875,1.44535,2.714286,2.01949,2.274194,1.738375,6,2,0,25,25,9,198.82499589998042,,5.0,0.9988718999666162,059528,001,2023-10-25_15h09.04.828,demo_experiment,2023.2.3,60.18958515547771,2023-10-25 15h09.11.961086 +0200,
Fluch,3.253968,2.257377,5.68254,2.428496,7.52381,1.82153,5,1,0,26,26,25,199.85805640002945,,3.0,1.4268185999826528,059528,001,2023-10-25_15h09.04.828,demo_experiment,2023.2.3,60.18958515547771,2023-10-25 15h09.11.961086 +0200,
Phobie,3.412698,2.460232,6.15625,2.365216,8.0,1.471032,6,2,0,27,27,67,201.33999629999744,,2.0,2.2047811999800615,059528,001,2023-10-25_15h09.04.828,demo_experiment,2023.2.3,60.18958515547771,2023-10-25 15h09.11.961086 +0200,
Meer,6.451613,2.413605,5.428571,2.716225,2.253968,2.078835,4,1,0,28,28,59,203.60710720001953,,4.0,1.5982957999804057,059528,001,2023-10-25_15h09.04.828,demo_experiment,2023.2.3,60.18958515547771,2023-10-25 15h09.11.961086 +0200,
Bankrott,3.063492,2.614309,5.1875,2.724813,6.16129,2.920777,8,2,0,29,29,8,205.2727712999913,,2.0,3.0482364000054076,059528,001,2023-10-25_15h09.04.828,demo_experiment,2023.2.3,60.18958515547771,2023-10-25 15h09.11.961086 +0200,
Hengst,5.453125,1.413424,4.285714,2.445724,2.209677,1.784607,6,1,0,30,30,45,208.40444439998828,,3.0,1.6960245000082068,059528,001,2023-10-25_15h09.04.828,demo_experiment,2023.2.3,60.18958515547771,2023-10-25 15h09.11.961086 +0200,
Schale,5.15873,0.936816,2.672131,1.989316,1.854839,1.597609,6,2,0,31,31,73,210.12202840001555,,5.0,1.110265800030902,059528,001,2023-10-25_15h09.04.828,demo_experiment,2023.2.3,60.18958515547771,2023-10-25 15h09.11.961086 +0200,
Faden,5.0625,0.61399,2.114754,1.761613,1.698413,1.041632,5,2,0,32,32,21,211.28659069997957,,5.0,1.0189957999973558,059528,001,2023-10-25_15h09.04.828,demo_experiment,2023.2.3,60.18958515547771,2023-10-25 15h09.11.961086 +0200,
Bestand,4.984375,0.845008,2.190476,1.664207,6.725807,2.416944,7,2,0,33,33,11,212.32349229999818,,5.0,1.062638400006108,059528,001,2023-10-25_15h09.04.828,demo_experiment,2023.2.3,60.18958515547771,2023-10-25 15h09.11.961086 +0200,
Butter,4.936508,0.948224,2.306452,1.825042,1.693548,1.064921,6,2,0,34,34,16,213.42067910003243,,5.0,1.3588418000144884,059528,001,2023-10-25_15h09.04.828,demo_experiment,2023.2.3,60.18958515547771,2023-10-25 15h09.11.961086 +0200,
Paar,6.492064,2.256696,5.095238,2.374015,4.174603,2.768135,4,1,0,35,35,63,214.8186854000087,,2.0,1.4120217000017874,059528,001,2023-10-25_15h09.04.828,demo_experiment,2023.2.3,60.18958515547771,2023-10-25 15h09.11.961086 +0200,
Denkmal,5.703125,1.465797,3.3125,2.046096,1.936508,1.63503,7,1,0,36,36,19,216.25380840001162,,4.0,1.8804980000131764,059528,001,2023-10-25_15h09.04.828,demo_experiment,2023.2.3,60.18958515547771,2023-10-25 15h09.11.961086 +0200,
Feind,3.079365,2.384774,7.0,2.12319,6.016129,2.53818,5,1,0,37,37,22,218.20059299998684,,4.0,1.863299599965103,059528,001,2023-10-25_15h09.04.828,demo_experiment,2023.2.3,60.18958515547771,2023-10-25 15h09.11.961086 +0200,
Hast,3.84375,2.001735,5.539683,2.551568,7.412698,1.914587,4,1,0,38,38,43,220.11674100003438,,2.0,1.8678697000141256,059528,001,2023-10-25_15h09.04.828,demo_experiment,2023.2.3,60.18958515547771,2023-10-25 15h09.11.961086 +0200,
Lampe,5.365079,0.97222,2.274194,1.917729,1.285714,0.633184,5,2,0,39,39,55,222.0327343000099,,5.0,1.3741638999781571,059528,001,2023-10-25_15h09.04.828,demo_experiment,2023.2.3,60.18958515547771,2023-10-25 15h09.11.961086 +0200,
Dampf,5.015625,0.604013,2.40625,1.55041,3.322581,2.487834,5,1,0,40,40,18,223.435525399982,,2.0,1.443084899976384,059528,001,2023-10-25_15h09.04.828,demo_experiment,2023.2.3,60.18958515547771,2023-10-25 15h09.11.961086 +0200,
Stunk,3.53125,2.281525,5.90625,2.314336,6.822581,2.161695,5,1,0,41,41,79,224.93169769999804,,3.0,1.542879400018137,059528,001,2023-10-25_15h09.04.828,demo_experiment,2023.2.3,60.18958515547771,2023-10-25 15h09.11.961086 +0200,
Gezänk,3.328125,2.047489,5.0625,2.455153,6.984127,2.105998,6,2,0,42,42,36,226.50065040000482,,2.0,2.1098350000102073,059528,001,2023-10-25_15h09.04.828,demo_experiment,2023.2.3,60.18958515547771,2023-10-25 15h09.11.961086 +0200,
Infarkt,3.109375,2.539324,6.885246,2.129932,4.571429,2.849529,7,2,0,43,43,48,228.66377290000673,,2.0,2.303138300019782,059528,001,2023-10-25_15h09.04.828,demo_experiment,2023.2.3,60.18958515547771,2023-10-25 15h09.11.961086 +0200,
Geier,4.25,1.885618,3.83871,2.334303,1.666667,1.295152,5,2,0,44,44,31,231.01305780000985,,5.0,1.5409283000044525,059528,001,2023-10-25_15h09.04.828,demo_experiment,2023.2.3,60.18958515547771,2023-10-25 15h09.11.961086 +0200,
Dach,5.171875,1.120582,2.42623,1.765021,1.580645,1.0643,4,1,0,45,45,17,232.5955797000206,,5.0,0.9033120999811217,059528,001,2023-10-25_15h09.04.828,demo_experiment,2023.2.3,60.18958515547771,2023-10-25 15h09.11.961086 +0200,
Zug,5.269841,1.050443,2.16129,1.601163,1.571429,1.102991,3,1,0,46,46,99,233.52994360000594,,5.0,0.8928678999654949,059528,001,2023-10-25_15h09.04.828,demo_experiment,2023.2.3,60.18958515547771,2023-10-25 15h09.11.961086 +0200,
Tragik,4.171875,2.059085,5.09375,2.293668,8.290323,0.964741,6,2,0,47,47,84,234.47826100001112,,1.0,1.6308651000144891,059528,001,2023-10-25_15h09.04.828,demo_experiment,2023.2.3,60.18958515547771,2023-10-25 15h09.11.961086 +0200,
Gemahl,5.75,1.708987,3.984127,2.331358,4.349206,2.640618,6,2,0,48,48,34,236.16114139999263,,2.0,1.7130699999979697,059528,001,2023-10-25_15h09.04.828,demo_experiment,2023.2.3,60.18958515547771,2023-10-25 15h09.11.961086 +0200,
Kreide,5.046875,0.764898,2.21875,1.588338,1.451613,0.761307,6,2,0,49,49,52,237.910555200011,,4.0,1.2075593000045046,059528,001,2023-10-25_15h09.04.828,demo_experiment,2023.2.3,60.18958515547771,2023-10-25 15h09.11.961086 +0200,
Tänzer,5.904762,2.005752,5.52381,2.638775,3.31746,2.263493,6,2,0,50,50,82,239.16021430003457,,4.0,1.3112184000201523,059528,001,2023-10-25_15h09.04.828,demo_experiment,2023.2.3,60.18958515547771,2023-10-25 15h09.11.961086 +0200,
Gift,3.390625,2.32732,6.52381,2.284994,4.190476,2.717074,4,1,0,51,51,37,240.4963778000092,,5.0,1.5793076999834739,059528,001,2023-10-25_15h09.04.828,demo_experiment,2023.2.3,60.18958515547771,2023-10-25 15h09.11.961086 +0200,
Getier,4.380952,1.790914,4.546875,2.672195,4.015873,2.808352,6,2,0,52,52,35,242.10995489999186,,5.0,1.2981297000078484,059528,001,2023-10-25_15h09.04.828,demo_experiment,2023.2.3,60.18958515547771,2023-10-25 15h09.11.961086 +0200,
Lüge,3.578125,2.24531,6.887097,2.049429,7.442623,2.276874,4,2,0,53,53,57,243.44292750000022,,1.0,1.393552900000941,059528,001,2023-10-25_15h09.04.828,demo_experiment,2023.2.3,60.18958515547771,2023-10-25 15h09.11.961086 +0200,
Album,5.328125,1.2731,2.714286,1.852884,2.741936,2.126611,5,2,0,54,54,2,244.89129860000685,,5.0,1.199819400033448,059528,001,2023-10-25_15h09.04.828,demo_experiment,2023.2.3,60.18958515547771,2023-10-25 15h09.11.961086 +0200,
Bohne,5.109375,1.009749,2.492064,1.974621,1.603175,1.085679,5,2,0,55,55,13,246.14101060002577,,5.0,1.0552047999808565,059528,001,2023-10-25_15h09.04.828,demo_experiment,2023.2.3,60.18958515547771,2023-10-25 15h09.11.961086 +0200,
Urne,3.5625,2.114763,4.809524,2.558081,2.0,1.45912,4,2,0,56,56,89,247.24048700003186,,5.0,1.635784699989017,059528,001,2023-10-25_15h09.04.828,demo_experiment,2023.2.3,60.18958515547771,2023-10-25 15h09.11.961086 +0200,
Gebäck,6.0625,1.717094,3.234375,2.180303,2.0,1.305725,6,2,0,57,57,28,248.92321969999466,,5.0,0.8644374000141397,059528,001,2023-10-25_15h09.04.828,demo_experiment,2023.2.3,60.18958515547771,2023-10-25 15h09.11.961086 +0200,
Schnur,4.90625,0.683566,2.145161,1.667891,1.790323,1.202962,6,1,0,58,58,74,249.81036840000888,,5.0,1.1111382000381127,059528,001,2023-10-25_15h09.04.828,demo_experiment,2023.2.3,60.18958515547771,2023-10-25 15h09.11.961086 +0200,
Tango,6.25,2.130653,4.796875,2.495581,3.774194,2.418639,5,2,0,59,59,81,250.95720160001656,,3.0,2.141864000004716,059528,001,2023-10-25_15h09.04.828,demo_experiment,2023.2.3,60.18958515547771,2023-10-25 15h09.11.961086 +0200,
Hölle,3.0,2.71003,6.555556,2.421528,6.774194,2.601509,5,2,0,60,60,46,253.13850200001616,,1.0,2.2391130000469275,059528,001,2023-10-25_15h09.04.828,demo_experiment,2023.2.3,60.18958515547771,2023-10-25 15h09.11.961086 +0200,
Einfahrt,5.09375,0.830352,1.983871,1.583645,4.079365,2.62925,8,2,0,61,61,20,255.42095360002713,,4.0,1.4152993999887258,059528,001,2023-10-25_15h09.04.828,demo_experiment,2023.2.3,60.18958515547771,2023-10-25 15h09.11.961086 +0200,
Kummer,3.296875,2.517745,5.109375,2.35107,7.920635,1.649062,6,2,0,62,62,53,256.88714890001575,,1.0,1.8811407999601215,059528,001,2023-10-25_15h09.04.828,demo_experiment,2023.2.3,60.18958515547771,2023-10-25 15h09.11.961086 +0200,
Reptil,4.75,1.414214,3.640625,2.228012,2.241936,1.585648,6,2,0,63,63,70,258.8198007000028,,4.0,1.298588400008157,059528,001,2023-10-25_15h09.04.828,demo_experiment,2023.2.3,60.18958515547771,2023-10-25 15h09.11.961086 +0200,
Bad,6.063492,1.785904,3.904762,2.786571,1.774194,1.31098,3,1,0,64,64,6,260.16930389998015,,5.0,1.4864407000131905,059528,001,2023-10-25_15h09.04.828,demo_experiment,2023.2.3,60.18958515547771,2023-10-25 15h09.11.961086 +0200,
Säufer,3.3125,2.46805,6.578125,2.266419,4.206349,2.634503,6,2,0,65,65,71,261.7186470000306,,2.0,2.061529300000984,059528,001,2023-10-25_15h09.04.828,demo_experiment,2023.2.3,60.18958515547771,2023-10-25 15h09.11.961086 +0200,
Schuh,5.375,1.558387,2.734375,2.169355,1.31746,0.779276,5,1,0,66,66,75,263.83610499999486,,5.0,1.7769209000398405,059528,001,2023-10-25_15h09.04.828,demo_experiment,2023.2.3,60.18958515547771,2023-10-25 15h09.11.961086 +0200,
Beruf,5.671875,1.533278,2.90625,2.201866,5.904762,2.698353,5,2,0,67,67,10,265.667397000012,,1.0,1.7558639000053518,059528,001,2023-10-25_15h09.04.828,demo_experiment,2023.2.3,60.18958515547771,2023-10-25 15h09.11.961086 +0200,
Tasche,5.09375,1.136952,2.412698,1.880588,1.596774,1.151758,6,2,0,68,68,83,267.4519006999908,,5.0,1.3420102000236511,059528,001,2023-10-25_15h09.04.828,demo_experiment,2023.2.3,60.18958515547771,2023-10-25 15h09.11.961086 +0200,
Kotze,2.825397,2.636834,6.419355,2.329767,1.952381,1.507279,5,2,0,69,69,51,268.833146399993,,5.0,1.1913142999983393,059528,001,2023-10-25_15h09.04.828,demo_experiment,2023.2.3,60.18958515547771,2023-10-25 15h09.11.961086 +0200,
Wunsch,6.322581,2.046782,5.3125,2.455153,7.919355,1.518178,6,1,0,70,70,93,270.06595980003476,,2.0,1.824185799981933,059528,001,2023-10-25_15h09.04.828,demo_experiment,2023.2.3,60.18958515547771,2023-10-25 15h09.11.961086 +0200,
Hymne,5.765625,1.941544,4.1875,2.435681,5.129032,2.748972,5,2,0,71,71,47,271.9318398000323,,2.0,1.900795300025493,059528,001,2023-10-25_15h09.04.828,demo_experiment,2023.2.3,60.18958515547771,2023-10-25 15h09.11.961086 +0200,
Sucht,3.238095,2.427758,6.349206,1.952325,7.564516,1.996891,5,1,0,72,72,80,273.8811727000284,,3.0,2.851463099999819,059528,001,2023-10-25_15h09.04.828,demo_experiment,2023.2.3,60.18958515547771,2023-10-25 15h09.11.961086 +0200,
Glaube,5.952381,2.239157,4.564516,2.287679,8.048387,1.768832,6,2,0,73,73,38,276.7652851000312,,2.0,1.6642249999567866,059528,001,2023-10-25_15h09.04.828,demo_experiment,2023.2.3,60.18958515547771,2023-10-25 15h09.11.961086 +0200,
Picknick,6.258065,2.209781,4.671875,2.26817,3.301587,2.387028,8,2,0,74,74,68,278.4968891000026,,5.0,1.1936933000106364,059528,001,2023-10-25_15h09.04.828,demo_experiment,2023.2.3,60.18958515547771,2023-10-25 15h09.11.961086 +0200,
Triumph,6.419355,2.243741,6.301587,2.550363,7.387097,1.986469,7,2,0,75,75,86,279.72932919999585,,1.0,1.442689599993173,059528,001,2023-10-25_15h09.04.828,demo_experiment,2023.2.3,60.18958515547771,2023-10-25 15h09.11.961086 +0200,
Paket,5.484375,1.297032,2.650794,2.056922,1.83871,1.427982,5,2,0,76,76,64,281.21213350002654,,5.0,1.1291966999997385,059528,001,2023-10-25_15h09.04.828,demo_experiment,2023.2.3,60.18958515547771,2023-10-25 15h09.11.961086 +0200,
Zeitung,5.5625,1.592393,2.419355,1.625094,1.380952,0.705476,7,2,0,77,77,95,282.3637198000215,,5.0,1.0933841000078246,059528,001,2023-10-25_15h09.04.828,demo_experiment,2023.2.3,60.18958515547771,2023-10-25 15h09.11.961086 +0200,
Ordner,5.171875,1.032099,2.196721,1.777823,2.380952,2.330918,6,2,0,78,78,62,283.5111971999868,,5.0,0.8885656999773346,059528,001,2023-10-25_15h09.04.828,demo_experiment,2023.2.3,60.18958515547771,2023-10-25 15h09.11.961086 +0200,
Abfahrt,5.046875,0.966579,2.096774,1.467793,5.412698,2.60666,7,2,0,79,79,0,284.4275856000022,,2.0,1.7620084999944083,059528,001,2023-10-25_15h09.04.828,demo_experiment,2023.2.3,60.18958515547771,2023-10-25 15h09.11.961086 +0200,
Advent,6.301587,2.060652,4.079365,2.671846,5.306452,2.928597,6,2,0,80,80,1,286.2603727999958,,2.0,2.0910806999891065,059528,001,2023-10-25_15h09.04.828,demo_experiment,2023.2.3,60.18958515547771,2023-10-25 15h09.11.961086 +0200,
Parfüm,6.380952,2.202847,4.952381,2.310066,2.774194,2.228131,6,2,0,81,81,65,288.39269750000676,,4.0,2.1174442000337876,059528,001,2023-10-25_15h09.04.828,demo_experiment,2023.2.3,60.18958515547771,2023-10-25 15h09.11.961086 +0200,
Bahn,5.125,1.18857,2.806452,2.481662,1.612903,1.07665,4,1,0,82,82,7,290.5774226000067,,5.0,1.132284899998922,059528,001,2023-10-25_15h09.04.828,demo_experiment,2023.2.3,60.18958515547771,2023-10-25 15h09.11.961086 +0200,
Gunst,6.174603,1.631739,3.609375,2.272103,7.435484,1.770625,5,1,0,83,83,39,291.7433515000157,,2.0,1.4599117999896407,059528,001,2023-10-25_15h09.04.828,demo_experiment,2023.2.3,60.18958515547771,2023-10-25 15h09.11.961086 +0200,
Zufuhr,5.015625,0.577135,2.065574,1.681952,5.693548,2.460099,6,2,0,84,84,98,293.2588410000317,,1.0,2.2328253999585286,059528,001,2023-10-25_15h09.04.828,demo_experiment,2023.2.3,60.18958515547771,2023-10-25 15h09.11.961086 +0200,
Betrug,3.25,2.519763,5.857143,2.638775,6.677419,2.386947,6,2,0,85,85,12,295.55966480000643,,1.0,1.1159174999920651,059528,001,2023-10-25_15h09.04.828,demo_experiment,2023.2.3,60.18958515547771,2023-10-25 15h09.11.961086 +0200,
Zelt,5.734375,1.555759,3.269841,2.208534,1.460318,0.839074,4,1,0,86,86,96,296.71064860001206,,5.0,1.9604586000205018,059528,001,2023-10-25_15h09.04.828,demo_experiment,2023.2.3,60.18958515547771,2023-10-25 15h09.11.961086 +0200,
Mama,6.333333,2.429656,6.171875,2.250606,3.222222,2.660611,4,2,0,87,87,58,298.70821740000974,,5.0,2.8647999999811873,059528,001,2023-10-25_15h09.04.828,demo_experiment,2023.2.3,60.18958515547771,2023-10-25 15h09.11.961086 +0200,
Vortrag,5.28125,1.147375,2.725807,2.073797,4.888889,2.609605,7,2,0,88,88,90,301.64007399999537,,2.0,2.6472884999820963,059528,001,2023-10-25_15h09.04.828,demo_experiment,2023.2.3,60.18958515547771,2023-10-25 15h09.11.961086 +0200,
Stapel,4.96875,0.616409,1.918033,1.68617,2.984127,2.239615,6,2,0,89,89,77,304.32213119999506,,4.0,1.329188300005626,059528,001,2023-10-25_15h09.04.828,demo_experiment,2023.2.3,60.18958515547771,2023-10-25 15h09.11.961086 +0200,
Anzahl,5.126984,0.729385,2.33871,1.983072,6.770492,2.30502,6,2,0,90,90,5,305.68925900000613,,2.0,1.8639270000276156,059528,001,2023-10-25_15h09.04.828,demo_experiment,2023.2.3,60.18958515547771,2023-10-25 15h09.11.961086 +0200,
Inhalt,5.140625,0.989904,2.131148,1.687952,6.571429,2.353544,6,2,0,91,91,49,307.6206626999774,,2.0,2.6768223000108264,059528,001,2023-10-25_15h09.04.828,demo_experiment,2023.2.3,60.18958515547771,2023-10-25 15h09.11.961086 +0200,
Handlung,5.112903,0.9427,3.0,1.909231,6.612903,2.397778,8,2,0,92,92,40,310.3517428000341,,2.0,1.6353902000118978,059528,001,2023-10-25_15h09.04.828,demo_experiment,2023.2.3,60.18958515547771,2023-10-25 15h09.11.961086 +0200,
Stachel,4.476191,1.56429,4.0625,2.409472,1.873016,1.22464,7,2,0,93,93,76,312.01878879999276,,5.0,1.6104539000079967,059528,001,2023-10-25_15h09.04.828,demo_experiment,2023.2.3,60.18958515547771,2023-10-25 15h09.11.961086 +0200,
Geheul,3.59375,2.068039,5.31746,2.347445,6.142857,2.381766,6,2,0,94,94,30,313.6838955000276,,1.0,2.1364746000035666,059528,001,2023-10-25_15h09.04.828,demo_experiment,2023.2.3,60.18958515547771,2023-10-25 15h09.11.961086 +0200,
Freund,6.9375,2.587362,7.111111,2.215132,4.730159,2.846653,6,1,0,95,95,27,315.85114169999724,,4.0,1.2648434999864548,059528,001,2023-10-25_15h09.04.828,demo_experiment,2023.2.3,60.18958515547771,2023-10-25 15h09.11.961086 +0200,
Geilheit,4.890625,2.19029,7.03125,1.708696,7.774194,1.731287,8,2,0,96,96,32,317.150538899994,,4.0,2.127420000033453,059528,001,2023-10-25_15h09.04.828,demo_experiment,2023.2.3,60.18958515547771,2023-10-25 15h09.11.961086 +0200,
Anreiz,6.112903,1.934203,4.84375,2.338218,7.285714,2.090135,6,2,0,97,97,4,319.3319797000149,,2.0,2.108296899998095,059528,001,2023-10-25_15h09.04.828,demo_experiment,2023.2.3,60.18958515547771,2023-10-25 15h09.11.961086 +0200,
Tugend,6.225807,2.1533,4.603175,2.366021,7.548387,2.013702,6,2,0,98,98,87,321.4650783999823,,1.0,1.211727100017015,059528,001,2023-10-25_15h09.04.828,demo_experiment,2023.2.3,60.18958515547771,2023-10-25 15h09.11.961086 +0200,
Stress,3.515625,2.316211,5.777778,2.574343,7.349206,2.033262,6,1,0,99,99,78,322.7308192999917,,1.0,1.1553238999913447,059528,001,2023-10-25_15h09.04.828,demo_experiment,2023.2.3,60.18958515547771,2023-10-25 15h09.11.961086 +0200,
