word,kk_valence_mean,kk_valence_sd,kk_arousal_mean,kk_arousal_sd,kk_concreteness_mean,kk_concreteness_sd,number_of_letters,number_of_syllables,trials.thisRepN,trials.thisTrialN,trials.thisN,trials.thisIndex,thisRow.t,notes,resp_scale.response,resp_scale.rt,participant,session,date,expName,psychopyVersion,frameRate,expStart,
Stunk,3.53125,2.281525,5.90625,2.314336,6.822581,2.161695,5,1,0,0,0,79,1.737114833999982,,1.0,7.693209375000009,836666,001,2023-10-25_09h34.49.969,demo_experiment,2023.2.3,119.50191696607112,2023-10-25 09h34.55.986730 +0200,
Urne,3.5625,2.114763,4.809524,2.558081,2.0,1.45912,4,2,0,1,1,89,9.44606349999998,,5.0,1.8691427090000161,836666,001,2023-10-25_09h34.49.969,demo_experiment,2023.2.3,119.50191696607112,2023-10-25 09h34.55.986730 +0200,
Stress,3.515625,2.316211,5.777778,2.574343,7.349206,2.033262,6,1,0,2,2,78,11.332595666999993,,1.0,2.601033916999995,836666,001,2023-10-25_09h34.49.969,demo_experiment,2023.2.3,119.50191696607112,2023-10-25 09h34.55.986730 +0200,
Freund,6.9375,2.587362,7.111111,2.215132,4.730159,2.846653,6,1,0,3,3,27,13.9522695,,4.0,2.717787499999986,836666,001,2023-10-25_09h34.49.969,demo_experiment,2023.2.3,119.50191696607112,2023-10-25 09h34.55.986730 +0200,
Tänzer,5.904762,2.005752,5.52381,2.638775,3.31746,2.263493,6,2,0,4,4,82,16.689866209,,4.0,2.169628749999987,836666,001,2023-10-25_09h34.49.969,demo_experiment,2023.2.3,119.50191696607112,2023-10-25 09h34.55.986730 +0200,
Denkmal,5.703125,1.465797,3.3125,2.046096,1.936508,1.63503,7,1,0,5,5,19,18.87883554199999,,5.0,1.6387906660000056,836666,001,2023-10-25_09h34.49.969,demo_experiment,2023.2.3,119.50191696607112,2023-10-25 09h34.55.986730 +0200,
Faden,5.0625,0.61399,2.114754,1.761613,1.698413,1.041632,5,2,0,6,6,21,20.535526583999996,,5.0,1.3160285410000085,836666,001,2023-10-25_09h34.49.969,demo_experiment,2023.2.3,119.50191696607112,2023-10-25 09h34.55.986730 +0200,
Härte,4.59375,1.874802,4.15625,2.324601,6.483871,2.494203,5,2,0,7,7,42,21.870226916999997,,2.0,1.8249404579999862,836666,001,2023-10-25_09h34.49.969,demo_experiment,2023.2.3,119.50191696607112,2023-10-25 09h34.55.986730 +0200,
Zimmer,5.375,0.967733,2.650794,2.041179,2.238095,1.729388,6,2,0,8,8,97,23.71623654199999,,4.0,3.000003458000009,836666,001,2023-10-25_09h34.49.969,demo_experiment,2023.2.3,119.50191696607112,2023-10-25 09h34.55.986730 +0200,
Felsen,5.390625,1.304658,3.274194,2.166582,1.258065,0.541264,6,2,0,9,9,23,26.732966499999975,,5.0,2.6836132500000076,836666,001,2023-10-25_09h34.49.969,demo_experiment,2023.2.3,119.50191696607112,2023-10-25 09h34.55.986730 +0200,
Gezänk,3.328125,2.047489,5.0625,2.455153,6.984127,2.105998,6,2,0,10,10,36,29.44988458399999,,2.0,2.4516640000000223,836666,001,2023-10-25_09h34.49.969,demo_experiment,2023.2.3,119.50191696607112,2023-10-25 09h34.55.986730 +0200,
Bahn,5.125,1.18857,2.806452,2.481662,1.612903,1.07665,4,1,0,11,11,7,31.904530459,,5.0,2.7999570419999884,836666,001,2023-10-25_09h34.49.969,demo_experiment,2023.2.3,119.50191696607112,2023-10-25 09h34.55.986730 +0200,
Pest,2.904762,2.860827,6.84127,2.171712,4.612903,2.932882,4,1,0,12,12,66,34.7231865,,3.0,1.9847532500000113,836666,001,2023-10-25_09h34.49.969,demo_experiment,2023.2.3,119.50191696607112,2023-10-25 09h34.55.986730 +0200,
Bonbon,5.984127,1.755104,3.3125,2.069238,1.741936,1.213794,6,2,0,13,13,14,36.72700220899998,,5.0,1.7713031249999744,836666,001,2023-10-25_09h34.49.969,demo_experiment,2023.2.3,119.50191696607112,2023-10-25 09h34.55.986730 +0200,
Anhang,5.015625,0.983873,2.33871,1.889952,6.016129,2.790452,6,2,0,14,14,3,38.516573541999975,,3.0,2.1777241249999975,836666,001,2023-10-25_09h34.49.969,demo_experiment,2023.2.3,119.50191696607112,2023-10-25 09h34.55.986730 +0200,
Feind,3.079365,2.384774,7.0,2.12319,6.016129,2.53818,5,1,0,15,15,22,40.711572625,,3.0,2.4218199999999968,836666,001,2023-10-25_09h34.49.969,demo_experiment,2023.2.3,119.50191696607112,2023-10-25 09h34.55.986730 +0200,
Hymne,5.765625,1.941544,4.1875,2.435681,5.129032,2.748972,5,2,0,16,16,47,43.16728179200001,,4.0,1.969798207999986,836666,001,2023-10-25_09h34.49.969,demo_experiment,2023.2.3,119.50191696607112,2023-10-25 09h34.55.986730 +0200,
Inhalt,5.140625,0.989904,2.131148,1.687952,6.571429,2.353544,6,2,0,17,17,49,45.14025716699999,,2.0,3.1395172080000293,836666,001,2023-10-25_09h34.49.969,demo_experiment,2023.2.3,119.50191696607112,2023-10-25 09h34.55.986730 +0200,
Bohne,5.109375,1.009749,2.492064,1.974621,1.603175,1.085679,5,2,0,18,18,13,48.31707900000001,,5.0,1.6723082089999934,836666,001,2023-10-25_09h34.49.969,demo_experiment,2023.2.3,119.50191696607112,2023-10-25 09h34.55.986730 +0200,
Tripper,3.142857,2.663112,6.265625,2.463977,4.951613,3.091116,7,2,0,19,19,85,50.00406004199996,,3.0,3.6762654999999995,836666,001,2023-10-25_09h34.49.969,demo_experiment,2023.2.3,119.50191696607112,2023-10-25 09h34.55.986730 +0200,
Becken,5.421875,1.44535,2.714286,2.01949,2.274194,1.738375,6,2,0,20,20,9,53.70051412500001,,4.0,3.084497957999986,836666,001,2023-10-25_09h34.49.969,demo_experiment,2023.2.3,119.50191696607112,2023-10-25 09h34.55.986730 +0200,
Irrsinn,3.9375,1.934441,5.539683,2.354306,7.419355,1.815673,7,2,0,21,21,50,56.817373333999996,,2.0,2.735781667000026,836666,001,2023-10-25_09h34.49.969,demo_experiment,2023.2.3,119.50191696607112,2023-10-25 09h34.55.986730 +0200,
Liebchen,6.206349,1.667127,5.09375,2.334821,6.428571,2.029733,8,2,0,22,22,56,59.555478625000006,,2.0,3.106091499999991,836666,001,2023-10-25_09h34.49.969,demo_experiment,2023.2.3,119.50191696607112,2023-10-25 09h34.55.986730 +0200,
Paket,5.484375,1.297032,2.650794,2.056922,1.83871,1.427982,5,2,0,23,23,64,62.67955004199999,,5.0,1.7032481670000266,836666,001,2023-10-25_09h34.49.969,demo_experiment,2023.2.3,119.50191696607112,2023-10-25 09h34.55.986730 +0200,
Beruf,5.671875,1.533278,2.90625,2.201866,5.904762,2.698353,5,2,0,24,24,10,64.40017275,,3.0,1.8850559580000095,836666,001,2023-10-25_09h34.49.969,demo_experiment,2023.2.3,119.50191696607112,2023-10-25 09h34.55.986730 +0200,
Mama,6.333333,2.429656,6.171875,2.250606,3.222222,2.660611,4,2,0,25,25,58,66.30326620899999,,3.0,2.2481442499999957,836666,001,2023-10-25_09h34.49.969,demo_experiment,2023.2.3,119.50191696607112,2023-10-25 09h34.55.986730 +0200,
Fleiss,6.460318,1.941278,4.238095,2.204938,7.725807,1.651322,5,1,0,26,26,24,68.569295042,,1.0,1.9203402090000168,836666,001,2023-10-25_09h34.49.969,demo_experiment,2023.2.3,119.50191696607112,2023-10-25 09h34.55.986730 +0200,
Zeitung,5.5625,1.592393,2.419355,1.625094,1.380952,0.705476,7,2,0,27,27,95,70.50793604200001,,5.0,1.9488062500000183,836666,001,2023-10-25_09h34.49.969,demo_experiment,2023.2.3,119.50191696607112,2023-10-25 09h34.55.986730 +0200,
Kreide,5.046875,0.764898,2.21875,1.588338,1.451613,0.761307,6,2,0,28,28,52,72.47422233399996,,5.0,1.2370279589999882,836666,001,2023-10-25_09h34.49.969,demo_experiment,2023.2.3,119.50191696607112,2023-10-25 09h34.55.986730 +0200,
Phobie,3.412698,2.460232,6.15625,2.365216,8.0,1.471032,6,2,0,29,29,67,73.728270417,,2.0,1.6800018330000057,836666,001,2023-10-25_09h34.49.969,demo_experiment,2023.2.3,119.50191696607112,2023-10-25 09h34.55.986730 +0200,
Zug,5.269841,1.050443,2.16129,1.601163,1.571429,1.102991,3,1,0,30,30,99,75.42631225,,5.0,1.8993136660000118,836666,001,2023-10-25_09h34.49.969,demo_experiment,2023.2.3,119.50191696607112,2023-10-25 09h34.55.986730 +0200,
Freibad,6.079365,2.034395,3.703125,2.14313,2.333333,2.047816,7,1,0,31,31,26,77.34672120899998,,5.0,1.7148533749999615,836666,001,2023-10-25_09h34.49.969,demo_experiment,2023.2.3,119.50191696607112,2023-10-25 09h34.55.986730 +0200,
Würde,6.380952,2.253518,4.65625,2.405145,8.032258,1.792221,5,2,0,32,32,94,79.07963125,,1.0,1.9656912500000203,836666,001,2023-10-25_09h34.49.969,demo_experiment,2023.2.3,119.50191696607112,2023-10-25 09h34.55.986730 +0200,
Lüge,3.578125,2.24531,6.887097,2.049429,7.442623,2.276874,4,2,0,33,33,57,81.06249962500002,,1.0,1.5074395840000534,836666,001,2023-10-25_09h34.49.969,demo_experiment,2023.2.3,119.50191696607112,2023-10-25 09h34.55.986730 +0200,
Ordner,5.171875,1.032099,2.196721,1.777823,2.380952,2.330918,6,2,0,34,34,62,82.58873116699996,,5.0,2.399811291999981,836666,001,2023-10-25_09h34.49.969,demo_experiment,2023.2.3,119.50191696607112,2023-10-25 09h34.55.986730 +0200,
Zufuhr,5.015625,0.577135,2.065574,1.681952,5.693548,2.460099,6,2,0,35,35,98,85.00748200000001,,2.0,3.8358977909999794,836666,001,2023-10-25_09h34.49.969,demo_experiment,2023.2.3,119.50191696607112,2023-10-25 09h34.55.986730 +0200,
Wunsch,6.322581,2.046782,5.3125,2.455153,7.919355,1.518178,6,1,0,36,36,93,88.86106466699997,,2.0,1.633535084000016,836666,001,2023-10-25_09h34.49.969,demo_experiment,2023.2.3,119.50191696607112,2023-10-25 09h34.55.986730 +0200,
Stachel,4.476191,1.56429,4.0625,2.409472,1.873016,1.22464,7,2,0,37,37,76,90.51424925,,4.0,3.865798916000017,836666,001,2023-10-25_09h34.49.969,demo_experiment,2023.2.3,119.50191696607112,2023-10-25 09h34.55.986730 +0200,
Dach,5.171875,1.120582,2.42623,1.765021,1.580645,1.0643,4,1,0,38,38,17,94.39636533399997,,5.0,2.1058594579999976,836666,001,2023-10-25_09h34.49.969,demo_experiment,2023.2.3,119.50191696607112,2023-10-25 09h34.55.986730 +0200,
Anreiz,6.112903,1.934203,4.84375,2.338218,7.285714,2.090135,6,2,0,39,39,4,96.52048625,,3.0,2.24895670799998,836666,001,2023-10-25_09h34.49.969,demo_experiment,2023.2.3,119.50191696607112,2023-10-25 09h34.55.986730 +0200,
Bestand,4.984375,0.845008,2.190476,1.664207,6.725807,2.416944,7,2,0,40,40,11,98.78772870899999,,2.0,5.093007874999955,836666,001,2023-10-25_09h34.49.969,demo_experiment,2023.2.3,119.50191696607112,2023-10-25 09h34.55.986730 +0200,
Säufer,3.3125,2.46805,6.578125,2.266419,4.206349,2.634503,6,2,0,41,41,71,103.91882612499998,,2.0,2.3832980420000354,836666,001,2023-10-25_09h34.49.969,demo_experiment,2023.2.3,119.50191696607112,2023-10-25 09h34.55.986730 +0200,
Reptil,4.75,1.414214,3.640625,2.228012,2.241936,1.585648,6,2,0,42,42,70,106.31874004199997,,4.0,2.1838856249999594,836666,001,2023-10-25_09h34.49.969,demo_experiment,2023.2.3,119.50191696607112,2023-10-25 09h34.55.986730 +0200,
Advent,6.301587,2.060652,4.079365,2.671846,5.306452,2.928597,6,2,0,43,43,1,108.51866874999999,,2.0,1.661679208999999,836666,001,2023-10-25_09h34.49.969,demo_experiment,2023.2.3,119.50191696607112,2023-10-25 09h34.55.986730 +0200,
Sucht,3.238095,2.427758,6.349206,1.952325,7.564516,1.996891,5,1,0,44,44,80,110.19748633399999,,1.0,2.0530461249999803,836666,001,2023-10-25_09h34.49.969,demo_experiment,2023.2.3,119.50191696607112,2023-10-25 09h34.55.986730 +0200,
Stapel,4.96875,0.616409,1.918033,1.68617,2.984127,2.239615,6,2,0,45,45,77,112.26851620900001,,4.0,1.6478867920000084,836666,001,2023-10-25_09h34.49.969,demo_experiment,2023.2.3,119.50191696607112,2023-10-25 09h34.55.986730 +0200,
Kummer,3.296875,2.517745,5.109375,2.35107,7.920635,1.649062,6,2,0,46,46,53,113.93561545899999,,1.0,2.305842874999996,836666,001,2023-10-25_09h34.49.969,demo_experiment,2023.2.3,119.50191696607112,2023-10-25 09h34.55.986730 +0200,
Bad,6.063492,1.785904,3.904762,2.786571,1.774194,1.31098,3,1,0,47,47,6,116.25549362500001,,5.0,2.079038292000007,836666,001,2023-10-25_09h34.49.969,demo_experiment,2023.2.3,119.50191696607112,2023-10-25 09h34.55.986730 +0200,
Schale,5.15873,0.936816,2.672131,1.989316,1.854839,1.597609,6,2,0,48,48,73,118.35260837499996,,5.0,0.9443233339999892,836666,001,2023-10-25_09h34.49.969,demo_experiment,2023.2.3,119.50191696607112,2023-10-25 09h34.55.986730 +0200,
Helfer,6.66129,2.475742,4.571429,2.600957,4.714286,2.696644,6,2,0,49,49,44,119.31530487500001,,2.0,1.7354772919999846,836666,001,2023-10-25_09h34.49.969,demo_experiment,2023.2.3,119.50191696607112,2023-10-25 09h34.55.986730 +0200,
Opfer,3.0,2.469165,6.428571,2.298066,4.968254,2.614897,5,2,0,50,50,61,121.06918012499997,,2.0,1.5624744589999864,836666,001,2023-10-25_09h34.49.969,demo_experiment,2023.2.3,119.50191696607112,2023-10-25 09h34.55.986730 +0200,
Schnur,4.90625,0.683566,2.145161,1.667891,1.790323,1.202962,6,1,0,51,51,74,122.64805233399997,,5.0,1.759683124999981,836666,001,2023-10-25_09h34.49.969,demo_experiment,2023.2.3,119.50191696607112,2023-10-25 09h34.55.986730 +0200,
Einfahrt,5.09375,0.830352,1.983871,1.583645,4.079365,2.62925,8,2,0,52,52,20,124.42581983400001,,4.0,1.559014583000021,836666,001,2023-10-25_09h34.49.969,demo_experiment,2023.2.3,119.50191696607112,2023-10-25 09h34.55.986730 +0200,
Infarkt,3.109375,2.539324,6.885246,2.129932,4.571429,2.849529,7,2,0,53,53,48,126.001805459,,2.0,1.9448004170000104,836666,001,2023-10-25_09h34.49.969,demo_experiment,2023.2.3,119.50191696607112,2023-10-25 09h34.55.986730 +0200,
Anzahl,5.126984,0.729385,2.33871,1.983072,6.770492,2.30502,6,2,0,54,54,5,127.96357774999998,,3.0,6.433234374999984,836666,001,2023-10-25_09h34.49.969,demo_experiment,2023.2.3,119.50191696607112,2023-10-25 09h34.55.986730 +0200,
Paar,6.492064,2.256696,5.095238,2.374015,4.174603,2.768135,4,1,0,55,55,63,134.414186375,,3.0,1.6530800830000203,836666,001,2023-10-25_09h34.49.969,demo_experiment,2023.2.3,119.50191696607112,2023-10-25 09h34.55.986730 +0200,
Handlung,5.112903,0.9427,3.0,1.909231,6.612903,2.397778,8,2,0,56,56,40,136.08633483399998,,2.0,1.9722152919999871,836666,001,2023-10-25_09h34.49.969,demo_experiment,2023.2.3,119.50191696607112,2023-10-25 09h34.55.986730 +0200,
Geilheit,4.890625,2.19029,7.03125,1.708696,7.774194,1.731287,8,2,0,57,57,32,138.07475454199997,,3.0,3.6444318329999987,836666,001,2023-10-25_09h34.49.969,demo_experiment,2023.2.3,119.50191696607112,2023-10-25 09h34.55.986730 +0200,
Hengst,5.453125,1.413424,4.285714,2.445724,2.209677,1.784607,6,1,0,58,58,45,141.75348566699998,,4.0,1.4301224579999712,836666,001,2023-10-25_09h34.49.969,demo_experiment,2023.2.3,119.50191696607112,2023-10-25 09h34.55.986730 +0200,
Abfahrt,5.046875,0.966579,2.096774,1.467793,5.412698,2.60666,7,2,0,59,59,0,143.18656924999996,,4.0,1.4194810000000189,836666,001,2023-10-25_09h34.49.969,demo_experiment,2023.2.3,119.50191696607112,2023-10-25 09h34.55.986730 +0200,
Triumph,6.419355,2.243741,6.301587,2.550363,7.387097,1.986469,7,2,0,60,60,86,144.622341917,,2.0,1.8091495830000213,836666,001,2023-10-25_09h34.49.969,demo_experiment,2023.2.3,119.50191696607112,2023-10-25 09h34.55.986730 +0200,
Gift,3.390625,2.32732,6.52381,2.284994,4.190476,2.717074,4,1,0,61,61,37,146.448709584,,4.0,2.048757292000005,836666,001,2023-10-25_09h34.49.969,demo_experiment,2023.2.3,119.50191696607112,2023-10-25 09h34.55.986730 +0200,
Vortrag,5.28125,1.147375,2.725807,2.073797,4.888889,2.609605,7,2,0,62,62,90,148.51534391699997,,4.0,1.5427038329999618,836666,001,2023-10-25_09h34.49.969,demo_experiment,2023.2.3,119.50191696607112,2023-10-25 09h34.55.986730 +0200,
Zelt,5.734375,1.555759,3.269841,2.208534,1.460318,0.839074,4,1,0,63,63,96,150.07558641699998,,5.0,1.3963170419999642,836666,001,2023-10-25_09h34.49.969,demo_experiment,2023.2.3,119.50191696607112,2023-10-25 09h34.55.986730 +0200,
Geier,4.25,1.885618,3.83871,2.334303,1.666667,1.295152,5,2,0,64,64,31,151.48926924999998,,5.0,1.1339470830000096,836666,001,2023-10-25_09h34.49.969,demo_experiment,2023.2.3,119.50191696607112,2023-10-25 09h34.55.986730 +0200,
Parfüm,6.380952,2.202847,4.952381,2.310066,2.774194,2.228131,6,2,0,65,65,65,152.641791084,,5.0,0.9400588340000127,836666,001,2023-10-25_09h34.49.969,demo_experiment,2023.2.3,119.50191696607112,2023-10-25 09h34.55.986730 +0200,
Butter,4.936508,0.948224,2.306452,1.825042,1.693548,1.064921,6,2,0,66,66,16,153.59923845899996,,5.0,0.8854944160000287,836666,001,2023-10-25_09h34.49.969,demo_experiment,2023.2.3,119.50191696607112,2023-10-25 09h34.55.986730 +0200,
Tugend,6.225807,2.1533,4.603175,2.366021,7.548387,2.013702,6,2,0,67,67,87,154.503620375,,2.0,1.5195269999999823,836666,001,2023-10-25_09h34.49.969,demo_experiment,2023.2.3,119.50191696607112,2023-10-25 09h34.55.986730 +0200,
Meer,6.451613,2.413605,5.428571,2.716225,2.253968,2.078835,4,1,0,68,68,59,156.03925558399996,,4.0,1.7955280420000008,836666,001,2023-10-25_09h34.49.969,demo_experiment,2023.2.3,119.50191696607112,2023-10-25 09h34.55.986730 +0200,
Tango,6.25,2.130653,4.796875,2.495581,3.774194,2.418639,5,2,0,69,69,81,157.85294058399998,,3.0,1.9854022079999822,836666,001,2023-10-25_09h34.49.969,demo_experiment,2023.2.3,119.50191696607112,2023-10-25 09h34.55.986730 +0200,
Picknick,6.258065,2.209781,4.671875,2.26817,3.301587,2.387028,8,2,0,70,70,68,159.855587084,,4.0,2.264156458000002,836666,001,2023-10-25_09h34.49.969,demo_experiment,2023.2.3,119.50191696607112,2023-10-25 09h34.55.986730 +0200,
Wohl,6.193548,1.982205,4.765625,2.355286,7.564516,2.093088,4,1,0,71,71,92,162.13694879199997,,2.0,1.5519875840000168,836666,001,2023-10-25_09h34.49.969,demo_experiment,2023.2.3,119.50191696607112,2023-10-25 09h34.55.986730 +0200,
Lampe,5.365079,0.97222,2.274194,1.917729,1.285714,0.633184,5,2,0,72,72,55,163.706271084,,5.0,1.5821869170000014,836666,001,2023-10-25_09h34.49.969,demo_experiment,2023.2.3,119.50191696607112,2023-10-25 09h34.55.986730 +0200,
Gunst,6.174603,1.631739,3.609375,2.272103,7.435484,1.770625,5,1,0,73,73,39,165.30613708399997,,2.0,3.154224666999994,836666,001,2023-10-25_09h34.49.969,demo_experiment,2023.2.3,119.50191696607112,2023-10-25 09h34.55.986730 +0200,
Gemahl,5.75,1.708987,3.984127,2.331358,4.349206,2.640618,6,2,0,74,74,34,168.477615875,,3.0,3.606589499999984,836666,001,2023-10-25_09h34.49.969,demo_experiment,2023.2.3,119.50191696607112,2023-10-25 09h34.55.986730 +0200,
Fluch,3.253968,2.257377,5.68254,2.428496,7.52381,1.82153,5,1,0,75,75,25,172.1040525,,2.0,7.900157208999985,836666,001,2023-10-25_09h34.49.969,demo_experiment,2023.2.3,119.50191696607112,2023-10-25 09h34.55.986730 +0200,
Bankrott,3.063492,2.614309,5.1875,2.724813,6.16129,2.920777,8,2,0,76,76,8,180.021036334,,1.0,3.123840833000031,836666,001,2023-10-25_09h34.49.969,demo_experiment,2023.2.3,119.50191696607112,2023-10-25 09h34.55.986730 +0200,
Tasche,5.09375,1.136952,2.412698,1.880588,1.596774,1.151758,6,2,0,77,77,83,183.16062508399997,,5.0,1.4720574170000305,836666,001,2023-10-25_09h34.49.969,demo_experiment,2023.2.3,119.50191696607112,2023-10-25 09h34.55.986730 +0200,
Geisel,2.857143,2.64488,6.460318,2.298845,4.0,2.61145,6,2,0,78,78,33,184.650469625,,4.0,3.51558154199995,836666,001,2023-10-25_09h34.49.969,demo_experiment,2023.2.3,119.50191696607112,2023-10-25 09h34.55.986730 +0200,
Harem,4.953125,2.058121,5.140625,2.474423,4.190476,2.614211,5,2,0,79,79,41,188.18356287499998,,2.0,6.583884667000007,836666,001,2023-10-25_09h34.49.969,demo_experiment,2023.2.3,119.50191696607112,2023-10-25 09h34.55.986730 +0200,
Schal,5.203125,1.544881,2.507937,1.990891,1.634921,1.248245,5,1,0,80,80,72,194.787985917,,5.0,2.8171994580000046,836666,001,2023-10-25_09h34.49.969,demo_experiment,2023.2.3,119.50191696607112,2023-10-25 09h34.55.986730 +0200,
Schuh,5.375,1.558387,2.734375,2.169355,1.31746,0.779276,5,1,0,81,81,75,197.621500667,,4.0,3.3624310420000256,836666,001,2023-10-25_09h34.49.969,demo_experiment,2023.2.3,119.50191696607112,2023-10-25 09h34.55.986730 +0200,
Tragik,4.171875,2.059085,5.09375,2.293668,8.290323,0.964741,6,2,0,82,82,84,201.00037729199997,,2.0,3.538857916999973,836666,001,2023-10-25_09h34.49.969,demo_experiment,2023.2.3,119.50191696607112,2023-10-25 09h34.55.986730 +0200,
Bündel,5.03125,0.835117,2.741936,2.087712,3.174603,2.317811,6,2,0,83,83,15,204.55728912499998,,2.0,2.4461106670000277,836666,001,2023-10-25_09h34.49.969,demo_experiment,2023.2.3,119.50191696607112,2023-10-25 09h34.55.986730 +0200,
Geheul,3.59375,2.068039,5.31746,2.347445,6.142857,2.381766,6,2,0,84,84,30,207.02172125,,2.0,1.8824668330000236,836666,001,2023-10-25_09h34.49.969,demo_experiment,2023.2.3,119.50191696607112,2023-10-25 09h34.55.986730 +0200,
Album,5.328125,1.2731,2.714286,1.852884,2.741936,2.126611,5,2,0,85,85,2,208.92176212500001,,5.0,3.228362500000003,836666,001,2023-10-25_09h34.49.969,demo_experiment,2023.2.3,119.50191696607112,2023-10-25 09h34.55.986730 +0200,
Wissen,6.15873,2.201219,4.68254,2.752274,7.870968,1.56272,6,2,0,86,86,91,212.16597025000002,,1.0,2.174983749999967,836666,001,2023-10-25_09h34.49.969,demo_experiment,2023.2.3,119.50191696607112,2023-10-25 09h34.55.986730 +0200,
Produkt,5.140625,0.870453,2.253968,1.645799,4.380952,2.942616,7,2,0,87,87,69,214.3591795,,4.0,1.5412473330000012,836666,001,2023-10-25_09h34.49.969,demo_experiment,2023.2.3,119.50191696607112,2023-10-25 09h34.55.986730 +0200,
Glaube,5.952381,2.239157,4.564516,2.287679,8.048387,1.768832,6,2,0,88,88,38,215.938670292,,3.0,1.7249711669999783,836666,001,2023-10-25_09h34.49.969,demo_experiment,2023.2.3,119.50191696607112,2023-10-25 09h34.55.986730 +0200,
Kotze,2.825397,2.636834,6.419355,2.329767,1.952381,1.507279,5,2,0,89,89,51,217.678289959,,5.0,1.676036374999967,836666,001,2023-10-25_09h34.49.969,demo_experiment,2023.2.3,119.50191696607112,2023-10-25 09h34.55.986730 +0200,
Gebäck,6.0625,1.717094,3.234375,2.180303,2.0,1.305725,6,2,0,90,90,28,219.37113049999996,,5.0,1.1026972500000056,836666,001,2023-10-25_09h34.49.969,demo_experiment,2023.2.3,119.50191696607112,2023-10-25 09h34.55.986730 +0200,
Lager,5.171875,1.1893,2.33871,2.032067,3.096774,2.434113,5,2,0,91,91,54,220.49132412499998,,5.0,0.9996953330000338,836666,001,2023-10-25_09h34.49.969,demo_experiment,2023.2.3,119.50191696607112,2023-10-25 09h34.55.986730 +0200,
Hölle,3.0,2.71003,6.555556,2.421528,6.774194,2.601509,5,2,0,92,92,46,221.509520959,,2.0,1.7018957919999593,836666,001,2023-10-25_09h34.49.969,demo_experiment,2023.2.3,119.50191696607112,2023-10-25 09h34.55.986730 +0200,
Mystik,5.730159,1.638315,4.90625,2.361858,7.887097,1.865167,6,2,0,93,93,60,223.23019054199997,,2.0,1.6705852500000447,836666,001,2023-10-25_09h34.49.969,demo_experiment,2023.2.3,119.50191696607112,2023-10-25 09h34.55.986730 +0200,
Betrug,3.25,2.519763,5.857143,2.638775,6.677419,2.386947,6,2,0,94,94,12,224.9175,,2.0,1.3433304590000148,836666,001,2023-10-25_09h34.49.969,demo_experiment,2023.2.3,119.50191696607112,2023-10-25 09h34.55.986730 +0200,
Urin,3.671875,1.782229,6.31746,2.220327,2.222222,1.72687,4,2,0,95,95,88,226.28034904199998,,5.0,1.5943846670000426,836666,001,2023-10-25_09h34.49.969,demo_experiment,2023.2.3,119.50191696607112,2023-10-25 09h34.55.986730 +0200,
Dampf,5.015625,0.604013,2.40625,1.55041,3.322581,2.487834,5,1,0,96,96,18,227.892198084,,5.0,1.2276785839999889,836666,001,2023-10-25_09h34.49.969,demo_experiment,2023.2.3,119.50191696607112,2023-10-25 09h34.55.986730 +0200,
Gedicht,6.333333,2.032002,4.634921,2.522809,3.777778,2.523723,7,2,0,97,97,29,229.138321709,,4.0,2.7402324999999905,836666,001,2023-10-25_09h34.49.969,demo_experiment,2023.2.3,119.50191696607112,2023-10-25 09h34.55.986730 +0200,
Hast,3.84375,2.001735,5.539683,2.551568,7.412698,1.914587,4,1,0,98,98,43,231.895387209,,2.0,2.0119097499999725,836666,001,2023-10-25_09h34.49.969,demo_experiment,2023.2.3,119.50191696607112,2023-10-25 09h34.55.986730 +0200,
Getier,4.380952,1.790914,4.546875,2.672195,4.015873,2.808352,6,2,0,99,99,35,233.92496299999996,,4.0,2.829339750000031,836666,001,2023-10-25_09h34.49.969,demo_experiment,2023.2.3,119.50191696607112,2023-10-25 09h34.55.986730 +0200,
